File: pla.raw
"Test Type","Manual"
"Method Name:","C:\INSTRON\user\template\Xianghao.mtM"
"Name:","80PMMA20PBAT"
"Operator ID:","kai"
"Company:",""
"Lab name:",""
"Test date:","9/9/24"
"Temperature:",""
"Humidity:",""
"Note 1:",""
"Note 2:",""
"Note 3:",""
"Geometry:","Rectangular"
"Specimen",1
"Width:",5.842000,"mm"
"Thickness:",1.524000,"mm"
"Length:",38.7858,"mm"
"Diameter:",1.000000,"mm"
"Inner diameter:",0.500000,"mm"
"Outer diameter:",1.000000,"mm"
"Wall thickness:",0.500000,"mm"
"Area:",8.903208,"mm*mm"
"Linear density:",1.000000,"den"
"Sled weight:",9.806650,"N"
"Loading span:",0.000000,"mm"
"Support span:",1.000000,"mm"
"Span ratio:","2"
"Fixture type:","3-point"
"Comment:",""
"Included"
"Time sec","Extension mm","Load N","Stress MPa","Cycle Count ","Total Cycle Count ","Strain [Exten.] %","True strain %","Tenacity gf/tex","True stress Pa"
0,0.0003125,-0.3583382,-0.04024822,0,0,0.0008057071,0.0008057039,-328.863,-40248.54
0.378,0.006874999,0.919776,0.1033084,0,0,0.01772556,0.01772399,844.1194,103326.7
0.448,0.011875,2.184375,0.245347,0,0,0.03061687,0.03061219,2004.698,245422.1
0.508,0.0159375,3.454924,0.3880538,0,0,0.04109106,0.04108262,3170.738,388213.3
0.596,0.02,4.711487,0.5291898,0,0,0.05156526,0.05155197,4323.941,529462.7
0.742,0.024375,5.96833,0.6703573,0,0,0.06284516,0.06282542,5477.403,670778.6
0.88,0.02890625,7.225347,0.8115442,0,0,0.07452791,0.07450015,6631.023,812149
1.01,0.03328125,8.478381,0.9522838,0,0,0.08580781,0.08577101,7780.988,953100.9
1.136,0.03781249,9.750109,1.095123,0,0,0.09749056,0.09744307,8948.11,1096191
1.258,0.04234375,11.02263,1.238052,0,0,0.1091733,0.1091138,10115.96,1239403
1.384,0.04671874,12.29077,1.380488,0,0,0.1204532,0.1203807,11279.79,1382151
1.532,0.05124999,13.5493,1.521844,0,0,0.132136,0.1320487,12434.79,1523855
1.678,0.05609374,14.81599,1.664118,0,0,0.1446244,0.14452,13597.29,1666524
1.82,0.06078124,16.07464,1.805488,0,0,0.15671,0.1565874,14752.41,1808318
1.948,0.06499999,17.32995,1.946484,0,0,0.1675871,0.1674468,15904.47,1949746
2.072,0.06937499,18.58166,2.087075,0,0,0.178867,0.1787072,17053.22,2090808
2.192,0.07406249,19.85077,2.22962,0,0,0.1909526,0.1907705,18217.94,2233878
2.332,0.07812498,21.1159,2.371719,0,0,0.2014268,0.2012242,19379.01,2376496
2.474,0.08265624,22.36849,2.512408,0,0,0.2131095,0.2128828,20528.56,2517762
2.61,0.08703124,23.61889,2.652851,0,0,0.2243894,0.2241381,21676.11,2658804
2.742,0.09156248,24.87406,2.793831,0,0,0.2360722,0.235794,22828.03,2800426
2.86,0.09593749,26.13272,2.935202,0,0,0.2473521,0.2470467,23983.16,2942463
2.976,0.1003125,27.39774,3.077288,0,0,0.258632,0.2582981,25144.13,3085247
3.116,0.1045312,28.66063,3.219135,0,0,0.269509,0.2691465,26303.13,3227811
3.264,0.1089062,29.9257,3.361227,0,0,0.2807889,0.2803955,27464.15,3370664
3.398,0.1129687,31.18773,3.502977,0,0,0.2912631,0.2908398,28622.37,3513180
3.518,0.1171875,32.44835,3.644568,0,0,0.3021402,0.3016846,29779.29,3655580
3.636,0.12125,33.71738,3.787105,0,0,0.3126144,0.3121268,30943.95,3798944
3.742,0.1254687,34.98161,3.929101,0,0,0.3234914,0.3229693,32104.18,3941812
3.856,0.1296875,36.25115,4.071695,0,0,0.3343684,0.3338107,33269.29,4085309
3.988,0.13375,37.51083,4.213182,0,0,0.3448426,0.3442494,34425.37,4227711
4.142,0.1384375,38.77733,4.355433,0,0,0.3569283,0.3562928,35587.68,4370979
4.284,0.1429687,40.03939,4.497187,0,0,0.368611,0.3679333,36745.93,4513764
4.424,0.1473437,41.30492,4.63933,0,0,0.3798909,0.3791711,37907.37,4656954
4.542,0.1515625,42.56085,4.780395,0,0,0.390768,0.3900064,39059.98,4799075
4.646,0.1557812,43.81294,4.921028,0,0,0.401645,0.4008405,40209.09,4940793
4.77,0.1596875,45.07178,5.06242,0,0,0.4117163,0.4108711,41364.38,5083263
4.914,0.1640625,46.33291,5.20407,0,0,0.4229962,0.4221041,42521.78,5226083
5.052,0.1684375,47.58528,5.344735,0,0,0.4342761,0.4333359,43671.14,5367945
5.18,0.1728125,48.84415,5.48613,0,0,0.445556,0.4445664,44826.46,5510574
5.306,0.1771875,50.10593,5.627851,0,0,0.4568359,0.4557956,45984.45,5653562
5.426,0.1815625,51.37431,5.770315,0,0,0.4681158,0.4670236,47148.5,5797327
5.554,0.1859375,52.63476,5.911887,0,0,0.4793957,0.4782503,48305.27,5940228
5.686,0.1901562,53.90063,6.054068,0,0,0.4902728,0.4890749,49467.01,6083750
5.836,0.1945312,55.15797,6.195292,0,0,0.5015527,0.5002991,50620.93,6226364
5.966,0.1989062,56.42224,6.337293,0,0,0.5128326,0.5115221,51781.2,6369793
6.096,0.203125,57.69159,6.479866,0,0,0.5237097,0.5223431,52946.14,6513801
6.22,0.2076562,58.96184,6.622539,0,0,0.5353924,0.5339643,54111.91,6657996
6.33,0.2117187,60.22591,6.764518,0,0,0.5458666,0.5443821,55272,6801443
6.444,0.2159375,61.48691,6.906152,0,0,0.5567436,0.5551995,56429.28,6944602
6.594,0.2203125,62.74217,7.047142,0,0,0.5680236,0.5664164,57581.29,7087171
6.738,0.225,64.01055,7.189606,0,0,0.5801091,0.578433,58745.34,7231313
6.878,0.2292187,65.26096,7.33005,0,0,0.5909862,0.5892467,59892.89,7373370
7.008,0.2335937,66.53196,7.472808,0,0,0.6022661,0.6004597,61059.35,7517814
7.122,0.2379687,67.78801,7.613886,0,0,0.613546,0.6116715,62212.08,7660601
7.232,0.241875,69.04192,7.754724,0,0,0.6236174,0.6216809,63362.85,7803084
7.35,0.2459374,70.30426,7.896509,0,0,0.6340914,0.6320895,64521.36,7946580
7.506,0.2504687,71.56593,8.038218,0,0,0.6457742,0.643698,65679.24,8090127
7.644,0.2548437,72.82345,8.179461,0,0,0.6570541,0.6549049,66833.33,8233205
7.774,0.2592187,74.08632,8.321306,0,0,0.6683341,0.6661106,67992.32,8376921
7.91,0.2637499,75.34035,8.462157,0,0,0.6800168,0.6777151,69143.2,8519701
8.018,0.2682812,76.61201,8.604989,0,0,0.6916996,0.6893183,70310.26,8664510
8.146,0.2721875,77.87157,8.746462,0,0,0.7017709,0.69932,71466.21,8807842
8.29,0.2765624,79.12446,8.887185,0,0,0.7130507,0.7105206,72616.05,8950555
8.422,0.2807812,80.39125,9.02947,0,0,0.7239279,0.7213201,73778.63,9094837
8.552,0.2851562,81.64576,9.170375,0,0,0.7352077,0.7325182,74929.95,9237796
8.676,0.2895312,82.8995,9.311193,0,0,0.7464876,0.7437152,76080.56,9380701
8.8,0.2937499,84.16572,9.453415,0,0,0.7573646,0.754511,77242.63,9525012
8.912,0.2979687,85.43131,9.595565,0,0,0.7682418,0.7653058,78404.12,9669282
9.04,0.3023437,86.69705,9.737732,0,0,0.7795216,0.776499,79565.75,9813639
9.196,0.306875,87.96434,9.880073,0,0,0.7912044,0.7880908,80728.8,9958244
9.342,0.3114062,89.22175,10.0213,0,0,0.8028872,0.7996812,81882.77,1.010176e+007
9.48,0.3157812,90.48086,10.16273,0,0,0.814167,0.8108706,83038.32,1.024547e+007
9.61,0.3201562,91.74782,10.30503,0,0,0.8254469,0.8220587,84201.06,1.039009e+007
9.718,0.3245312,93.01054,10.44686,0,0,0.8367268,0.8332457,85359.91,1.053427e+007
9.834,0.3287499,94.28012,10.58946,0,0,0.8476039,0.8440319,86525.07,1.067921e+007
9.974,0.3329687,95.53178,10.73004,0,0,0.8584809,0.8548169,87673.78,1.082216e+007
10.124,0.3373437,96.79852,10.87232,0,0,0.8697608,0.8660002,88836.32,1.096688e+007
10.258,0.341875,98.05867,11.01386,0,0,0.8814436,0.8775816,89992.81,1.111094e+007
10.388,0.3464062,99.32175,11.15573,0,0,0.8931263,0.8891615,91151.99,1.125536e+007
10.508,0.3510937,100.5736,11.29634,0,0,0.905212,0.9011395,92300.91,1.139859e+007
10.634,0.3551562,101.8301,11.43746,0,0,0.9156861,0.9115192,93454.04,1.154219e+007
10.762,0.3595312,103.097,11.57976,0,0,0.9269661,0.9226961,94616.72,1.16871e+007
10.912,0.3639062,104.3524,11.72076,0,0,0.938246,0.9338718,95768.84,1.183073e+007
11.046,0.3682812,105.6087,11.86187,0,0,0.9495259,0.9450462,96921.81,1.19745e+007
11.18,0.3726562,106.8592,12.00232,0,0,0.9608057,0.9562193,98069.41,1.211764e+007
11.314,0.3770312,108.121,12.14405,0,0,0.9720857,0.9673913,99227.5,1.22621e+007
11.432,0.3814062,109.3773,12.28516,0,0,0.9833655,0.978562,100380.5,1.240597e+007
11.556,0.3860937,110.6336,12.42626,0,0,0.9954512,0.9905292,101533.4,1.254996e+007
11.686,0.3903125,111.8862,12.56696,0,0,1.006328,1.001298,102683,1.269342e+007
11.84,0.395,113.1432,12.70814,0,0,1.018414,1.013263,103836.6,1.283756e+007
11.984,0.3995312,114.4039,12.84974,0,0,1.030097,1.024827,104993.6,1.298211e+007
12.116,0.4039062,115.657,12.99049,0,0,1.041376,1.035991,106143.6,1.312577e+007
12.23,0.4082812,116.9127,13.13152,0,0,1.052656,1.047155,107296,1.326975e+007
12.352,0.4126562,118.1689,13.27262,0,0,1.063936,1.058316,108448.9,1.341384e+007
12.48,0.4167187,119.4276,13.414,0,0,1.07441,1.06868,109604.1,1.355812e+007
12.634,0.4214062,120.6777,13.55441,0,0,1.086496,1.080636,110751.3,1.370168e+007
12.772,0.4259374,121.9398,13.69616,0,0,1.098179,1.092193,111909.6,1.384657e+007
12.91,0.4304687,123.2043,13.83819,0,0,1.109862,1.103748,113070.1,1.399178e+007
13.05,0.4353125,124.4568,13.97887,0,0,1.12235,1.116098,114219.5,1.413576e+007
13.174,0.4395312,125.7135,14.12003,0,0,1.133227,1.126854,115372.9,1.428004e+007
13.294,0.4439062,126.9663,14.26074,0,0,1.144507,1.138007,116522.7,1.442395e+007
13.444,0.4482812,128.229,14.40256,0,0,1.155787,1.149159,117681.5,1.456902e+007
13.586,0.4528124,129.4834,14.54346,0,0,1.16747,1.160707,118832.7,1.471325e+007
13.716,0.4571874,130.7396,14.68455,0,0,1.17875,1.171856,119985.6,1.485765e+007
13.844,0.4617187,132.0028,14.82643,0,0,1.190432,1.183402,121144.8,1.500293e+007
13.952,0.4660937,133.2727,14.96907,0,0,1.201712,1.194549,122310.3,1.514895e+007
14.078,0.4706249,134.5298,15.11026,0,0,1.213395,1.206092,123464,1.529361e+007
14.246,0.4754687,135.7891,15.2517,0,0,1.225883,1.21843,124619.7,1.543867e+007
14.398,0.48,137.0399,15.39219,0,0,1.237566,1.229971,125767.6,1.558268e+007
14.542,0.4845312,138.3035,15.53412,0,0,1.249249,1.24151,126927.3,1.572818e+007
14.668,0.4889062,139.5548,15.67467,0,0,1.260529,1.25265,128075.7,1.587225e+007
14.792,0.4934374,140.8281,15.81768,0,0,1.272211,1.264187,129244.2,1.601892e+007
14.914,0.4978124,142.0844,15.95879,0,0,1.283491,1.275324,130397.2,1.616362e+007
15.03,0.5020311,143.3489,16.10081,0,0,1.294368,1.286063,131557.7,1.630922e+007
15.188,0.5067186,144.6079,16.24222,0,0,1.306454,1.297994,132713.1,1.645442e+007
15.33,0.5112499,145.864,16.38331,0,0,1.318137,1.309525,133865.9,1.659926e+007
15.466,0.5159374,147.1206,16.52444,0,0,1.330222,1.321453,135019.1,1.674425e+007
15.606,0.5204686,148.3802,16.66593,0,0,1.341905,1.332981,136175.2,1.688957e+007
15.722,0.5246874,149.6468,16.80819,0,0,1.352782,1.343714,137337.5,1.703557e+007
15.846,0.5292186,150.9096,16.95002,0,0,1.364465,1.35524,138496.4,1.71813e+007
16.006,0.5337499,152.1709,17.09169,0,0,1.376148,1.366765,139654,1.73269e+007
16.146,0.5382812,153.4247,17.23252,0,0,1.38783,1.378288,140804.7,1.747168e+007
16.284,0.5428124,154.6865,17.37424,0,0,1.399513,1.38981,141962.7,1.76174e+007
16.42,0.5473436,155.9531,17.5165,0,0,1.411196,1.401331,143125.1,1.776369e+007
16.536,0.5518749,157.2092,17.65759,0,0,1.422879,1.412851,144277.9,1.790884e+007
16.662,0.5565624,158.4651,17.79865,0,0,1.434964,1.424766,145430.5,1.805405e+007
16.814,0.5609374,159.716,17.93916,0,0,1.446244,1.435886,146578.5,1.81986e+007
16.972,0.5656249,160.9703,18.08003,0,0,1.45833,1.447799,147729.6,1.83437e+007
17.106,0.5701561,162.2326,18.22182,0,0,1.470013,1.459313,148888.1,1.848968e+007
17.234,0.5745312,163.4878,18.3628,0,0,1.481292,1.470429,150040.1,1.863481e+007
17.354,0.5792187,164.7613,18.50584,0,0,1.493378,1.482337,151208.8,1.87822e+007
17.468,0.5834374,166.0172,18.64689,0,0,1.504255,1.493053,152361.3,1.892739e+007
17.622,0.5879686,167.2764,18.78833,0,0,1.515938,1.504562,153517,1.907315e+007
17.78,0.5928124,168.5378,18.93001,0,0,1.528426,1.516864,154674.7,1.921934e+007
17.926,0.5976561,169.7915,19.07082,0,0,1.540915,1.529163,155825.2,1.936469e+007
18.072,0.6021874,171.0431,19.21141,0,0,1.552598,1.540668,156973.9,1.950968e+007
18.21,0.6070312,172.3007,19.35266,0,0,1.565086,1.552965,158128.1,1.965554e+007
18.324,0.6112499,173.5688,19.49508,0,0,1.575963,1.563674,159291.8,1.980232e+007
18.45,0.6156249,174.8348,19.63728,0,0,1.587243,1.574778,160453.7,1.994897e+007
18.604,0.6203124,176.0906,19.77833,0,0,1.599329,1.586674,161606.2,2.009465e+007
18.754,0.6249999,177.3572,19.9206,0,0,1.611414,1.598569,162768.7,2.02416e+007
18.886,0.6295312,178.6234,20.06282,0,0,1.623097,1.610066,163930.7,2.038845e+007
19.016,0.6342186,179.8832,20.20431,0,0,1.635182,1.621957,165086.8,2.053468e+007
19.118,0.6387499,181.1354,20.34496,0,0,1.646865,1.633452,166236,2.068001e+007
19.254,0.6431249,182.3942,20.48635,0,0,1.658145,1.644548,167391.3,2.082604e+007
19.448,0.6482811,183.6456,20.6269,0,0,1.671439,1.657625,168539.7,2.097166e+007
19.592,0.6529687,184.9058,20.76844,0,0,1.683525,1.669511,169696.3,2.111809e+007
19.728,0.6573437,186.1573,20.90901,0,0,1.694805,1.680603,170844.9,2.126338e+007
19.862,0.6621874,187.4232,21.05119,0,0,1.707293,1.692883,172006.6,2.14106e+007
19.98,0.6665624,188.6867,21.19311,0,0,1.718573,1.703973,173166.2,2.155733e+007
20.1,0.6709374,189.9382,21.33368,0,0,1.729853,1.715062,174314.8,2.170272e+007
20.264,0.6759374,191.1917,21.47448,0,0,1.742744,1.727733,175465.2,2.184872e+007
20.418,0.6809374,192.4452,21.61527,0,0,1.755636,1.740403,176615.6,2.199475e+007
20.574,0.6857811,193.7042,21.75668,0,0,1.768124,1.752675,177771,2.214136e+007
20.706,0.6903124,194.9587,21.89758,0,0,1.779807,1.764154,178922.3,2.228731e+007
20.824,0.6946874,196.2093,22.03804,0,0,1.791087,1.775236,180070,2.243277e+007
20.946,0.6993749,197.4673,22.17934,0,0,1.803172,1.787108,181224.5,2.257927e+007
21.104,0.7039061,198.719,22.31993,0,0,1.814855,1.798583,182373.3,2.272501e+007
21.26,0.7087499,199.9708,22.46053,0,0,1.827344,1.810848,183522.1,2.287096e+007
21.41,0.7137499,201.2364,22.60269,0,0,1.840235,1.823508,184683.7,2.301863e+007
21.552,0.7185937,202.5012,22.74474,0,0,1.852724,1.83577,185844.4,2.316614e+007
21.666,0.7231249,203.7679,22.88702,0,0,1.864406,1.847239,187006.9,2.331373e+007
21.808,0.7278124,205.0299,23.02876,0,0,1.876492,1.859103,188165,2.34609e+007
21.976,0.7326562,206.2919,23.17051,0,0,1.88898,1.871361,189323.3,2.36082e+007
22.126,0.7374999,207.5579,23.31271,0,0,1.901469,1.883617,190485.1,2.375599e+007
22.268,0.7421874,208.8255,23.45509,0,0,1.913554,1.895476,191648.5,2.390391e+007
22.402,0.7468749,210.0915,23.59729,0,0,1.92564,1.907334,192810.4,2.405168e+007
22.516,0.7515624,211.3459,23.73817,0,0,1.937726,1.919191,193961.6,2.419816e+007
22.652,0.7562499,212.6159,23.88082,0,0,1.949811,1.931046,195127.1,2.434645e+007
22.816,0.7609374,213.8726,24.02197,0,0,1.961897,1.9429,196280.4,2.449326e+007
22.98,0.7660937,215.1348,24.16374,0,0,1.975191,1.955937,197438.8,2.464102e+007
23.134,0.7709374,216.3936,24.30513,0,0,1.98768,1.968183,198594,2.478823e+007
23.264,0.7754687,217.6477,24.44599,0,0,1.999362,1.979638,199745,2.493475e+007
23.378,0.7801561,218.9163,24.58847,0,0,2.011448,1.991485,200909.2,2.508305e+007
23.496,0.7842187,220.1687,24.72914,0,0,2.021922,2.001753,202058.6,2.522915e+007
23.668,0.7893749,221.4334,24.8712,0,0,2.035216,2.014782,203219.3,2.537738e+007
23.826,0.7942186,222.6899,25.01233,0,0,2.047705,2.027021,204372.5,2.55245e+007
23.968,0.7990624,223.954,25.1543,0,0,2.060193,2.039258,205532.6,2.567253e+007
24.106,0.8039061,225.2157,25.29601,0,0,2.072682,2.051494,206690.5,2.582032e+007
24.23,0.8084374,226.4723,25.43716,0,0,2.084364,2.062939,207843.8,2.596736e+007
24.372,0.8134374,227.7396,25.5795,0,0,2.097256,2.075566,209006.8,2.611597e+007
24.534,0.8179686,228.9969,25.72071,0,0,2.108938,2.087008,210160.6,2.626315e+007
24.686,0.8228124,230.2493,25.86139,0,0,2.121427,2.099238,211310.1,2.641002e+007
24.832,0.8276561,231.5063,26.00257,0,0,2.133915,2.111466,212463.7,2.655744e+007
24.97,0.8324999,232.7565,26.143,0,0,2.146404,2.123693,213611,2.670413e+007
25.09,0.8370312,234.0184,26.28473,0,0,2.158087,2.13513,214769.2,2.685198e+007
25.218,0.8417186,235.2774,26.42614,0,0,2.170172,2.146959,215924.6,2.699964e+007
25.392,0.8468749,236.5337,26.56724,0,0,2.183466,2.15997,217077.5,2.714733e+007
25.554,0.8518749,237.7897,26.70831,0,0,2.196358,2.172585,218230.2,2.729492e+007
25.708,0.8567186,239.0551,26.85044,0,0,2.208846,2.184804,219391.5,2.744353e+007
25.842,0.8615624,240.324,26.99297,0,0,2.221334,2.197022,220556.1,2.759257e+007
25.956,0.8659374,241.5775,27.13376,0,0,2.232615,2.208056,221706.4,2.773955e+007
26.086,0.8707811,242.8306,27.27451,0,0,2.245103,2.220271,222856.5,2.788685e+007
26.266,0.8757811,244.0866,27.41558,0,0,2.257994,2.232879,224009.2,2.803462e+007
26.422,0.8806249,245.3416,27.55654,0,0,2.270483,2.245091,225161,2.818221e+007
26.57,0.8856249,246.6034,27.69826,0,0,2.283374,2.257695,226318.9,2.833072e+007
26.708,0.8907811,247.8651,27.83998,0,0,2.296668,2.270692,227476.9,2.847937e+007
26.826,0.8951561,249.1331,27.9824,0,0,2.307948,2.281718,228640.6,2.862822e+007
26.99,0.8999999,250.3848,28.12299,0,0,2.320436,2.293924,229789.3,2.877556e+007
27.146,0.9049999,251.6524,28.26536,0,0,2.333328,2.306522,230952.6,2.892488e+007
27.292,0.9098437,252.9109,28.40672,0,0,2.345816,2.318725,232107.7,2.907309e+007
27.438,0.9146874,254.177,28.54892,0,0,2.358305,2.330927,233269.6,2.922219e+007
27.582,0.9198436,255.4365,28.69039,0,0,2.371599,2.343913,234425.5,2.937081e+007
27.704,0.9243749,256.6981,28.83209,0,0,2.383282,2.355325,235583.3,2.951924e+007
27.854,0.9292187,257.9603,28.97387,0,0,2.39577,2.367522,236741.7,2.966801e+007
28.04,0.9346874,259.2222,29.11559,0,0,2.40987,2.381291,237899.8,2.981724e+007
28.198,0.9396874,260.4842,29.25734,0,0,2.422761,2.393878,239058,2.996618e+007
28.342,0.9445311,261.7376,29.39812,0,0,2.43525,2.40607,240208.3,3.011404e+007
28.462,0.9493749,262.9955,29.53941,0,0,2.447738,2.418261,241362.7,3.026246e+007
28.59,0.9540624,264.2476,29.68004,0,0,2.459824,2.430057,242511.8,3.041012e+007
28.758,0.9590624,265.5061,29.8214,0,0,2.472715,2.442638,243666.8,3.055879e+007
28.928,0.9642186,266.7636,29.96264,0,0,2.486009,2.455611,244820.9,3.070752e+007
29.078,0.9693749,268.024,30.10421,0,0,2.499304,2.468582,245977.6,3.08566e+007
29.226,0.9745311,269.2811,30.2454,0,0,2.512598,2.481551,247131.3,3.100535e+007
29.36,0.9792185,270.5401,30.38681,0,0,2.524683,2.493339,248286.7,3.115398e+007
29.498,0.9842186,271.7985,30.52815,0,0,2.537575,2.505913,249441.6,3.130283e+007
29.684,0.9895311,273.0628,30.67015,0,0,2.551271,2.51927,250601.9,3.145263e+007
29.836,0.9945311,274.325,30.81192,0,0,2.564163,2.53184,251760.3,3.160199e+007
29.996,0.9998436,275.5894,30.95394,0,0,2.57786,2.545193,252920.7,3.175189e+007
30.138,1.005156,276.8508,31.09563,0,0,2.591557,2.558545,254078.4,3.190149e+007
30.274,1.01,278.1168,31.23782,0,0,2.604045,2.570717,255240.2,3.205127e+007
30.422,1.015,279.3678,31.37833,0,0,2.616937,2.583281,256388.3,3.219948e+007
30.616,1.020625,280.6195,31.51892,0,0,2.631439,2.597413,257537.1,3.234832e+007
30.776,1.025781,281.8753,31.65998,0,0,2.644733,2.610365,258689.6,3.24973e+007
30.922,1.030937,283.131,31.80101,0,0,2.658028,2.623316,259842,3.264629e+007
31.046,1.035781,284.3946,31.94293,0,0,2.670516,2.63548,261001.6,3.279597e+007
31.194,1.040781,285.6468,32.08358,0,0,2.683407,2.648035,262150.8,3.294451e+007
31.388,1.046562,286.8993,32.22426,0,0,2.698313,2.662551,263300.3,3.309377e+007
31.556,1.052031,288.1638,32.36629,0,0,2.712413,2.676279,264460.8,3.32442e+007
31.72,1.057344,289.4262,32.50808,0,0,2.72611,2.689613,265619.3,3.339428e+007
31.866,1.0625,290.6827,32.6492,0,0,2.739404,2.702554,266772.4,3.35436e+007
32.012,1.067812,291.9378,32.79018,0,0,2.753101,2.715885,267924.3,3.369293e+007
32.178,1.072812,293.193,32.93116,0,0,2.765992,2.72843,269076.3,3.384204e+007
32.352,1.078437,294.4461,33.07191,0,0,2.780495,2.742541,270226.3,3.399147e+007
32.506,1.08375,295.7044,33.21325,0,0,2.794192,2.755867,271381.1,3.414129e+007
32.648,1.089219,296.9703,33.35543,0,0,2.808292,2.769583,272542.9,3.429215e+007
32.782,1.094219,298.2334,33.49729,0,0,2.821183,2.782121,273702.1,3.444231e+007
32.978,1.099844,299.4837,33.63773,0,0,2.835686,2.796225,274849.5,3.459159e+007
33.172,1.105625,300.7442,33.77931,0,0,2.850592,2.810718,276006.4,3.474222e+007
33.334,1.110937,302.0079,33.92124,0,0,2.864289,2.824035,277166.1,3.489284e+007
33.492,1.116406,303.2728,34.06332,0,0,2.878389,2.837741,278327,3.504379e+007
33.626,1.121406,304.5305,34.20459,0,0,2.89128,2.850271,279481.3,3.519353e+007
33.772,1.126719,305.7908,34.34613,0,0,2.904977,2.863582,280637.8,3.534388e+007
33.968,1.132656,307.0415,34.48661,0,0,2.920285,2.878457,281785.7,3.549372e+007
34.14,1.138437,308.3033,34.62833,0,0,2.935191,2.892939,282943.7,3.564474e+007
34.316,1.143906,309.5591,34.76939,0,0,2.949291,2.906636,284096.2,3.579484e+007
34.456,1.149219,310.8255,34.91163,0,0,2.962988,2.91994,285258.4,3.594606e+007
34.598,1.154375,312.0784,35.05235,0,0,2.976282,2.93285,286408.2,3.609561e+007
34.808,1.160469,313.3291,35.19283,0,0,2.991993,2.948106,287556.1,3.62458e+007
34.984,1.166094,314.5936,35.33487,0,0,3.006496,2.962187,288716.6,3.639721e+007
35.152,1.171719,315.8584,35.47692,0,0,3.020999,2.976265,289877.3,3.654868e+007
35.294,1.177187,317.1271,35.61942,0,0,3.035099,2.989951,291041.7,3.67005e+007
35.452,1.182812,318.3894,35.7612,0,0,3.049601,3.004025,292200.1,3.685177e+007
35.67,1.189062,319.6497,35.90275,0,0,3.065715,3.019661,293356.8,3.700343e+007
35.842,1.194687,320.9074,36.04402,0,0,3.080218,3.033732,294511,3.715426e+007
36.008,1.200312,322.1644,36.1852,0,0,3.094721,3.0478,295664.6,3.730503e+007
36.138,1.205625,323.4327,36.32765,0,0,3.108418,3.061085,296828.6,3.745687e+007
36.298,1.211094,324.691,36.46899,0,0,3.122518,3.074759,297983.4,3.760774e+007
36.524,1.217656,325.9527,36.6107,0,0,3.139438,3.091165,299141.3,3.776007e+007
36.712,1.22375,327.214,36.75237,0,0,3.155149,3.106397,300298.8,3.791196e+007
36.904,1.229687,328.4682,36.89324,0,0,3.170457,3.121236,301449.9,3.806292e+007
37.042,1.235156,329.7286,37.03481,0,0,3.184557,3.134902,302606.7,3.821421e+007
37.196,1.240625,330.9943,37.17698,0,0,3.198657,3.148566,303768.3,3.836614e+007
37.406,1.246875,332.2518,37.31822,0,0,3.214772,3.164179,304922.3,3.851791e+007
37.588,1.252969,333.5153,37.46013,0,0,3.230483,3.1794,306081.9,3.867027e+007
37.746,1.258594,334.7757,37.60169,0,0,3.244985,3.193448,307238.6,3.882186e+007
37.872,1.264062,336.0335,37.74297,0,0,3.259085,3.207103,308392.9,3.897304e+007
38.108,1.270625,337.2867,37.88372,0,0,3.276005,3.223488,309543,3.91248e+007
38.316,1.277031,338.5493,38.02554,0,0,3.292522,3.23948,310701.8,3.927754e+007
38.496,1.282969,339.8092,38.16705,0,0,3.307831,3.254299,311858.1,3.942955e+007
38.656,1.288906,341.0621,38.30778,0,0,3.323139,3.269116,313007.9,3.95808e+007
38.812,1.294844,342.3301,38.45019,0,0,3.338447,3.283931,314171.6,3.973383e+007
39.022,1.301093,343.5916,38.59189,0,0,3.354561,3.299524,315329.4,3.988648e+007
39.226,1.307656,344.8457,38.73275,0,0,3.371481,3.315893,316480.3,4.003862e+007
39.422,1.314062,346.0999,38.87362,0,0,3.387998,3.33187,317631.3,4.019065e+007
39.574,1.319687,347.3509,39.01413,0,0,3.402501,3.345897,318779.4,4.034159e+007
39.722,1.325312,348.6018,39.15463,0,0,3.417004,3.359921,319927.4,4.049255e+007
39.968,1.3325,349.8537,39.29523,0,0,3.435535,3.377838,321076.3,4.064524e+007
40.172,1.339062,351.1119,39.43655,0,0,3.452455,3.394195,322231,4.079809e+007
40.342,1.345469,352.3664,39.57747,0,0,3.468972,3.410159,323382.3,4.095039e+007
40.524,1.351562,353.6199,39.71826,0,0,3.484683,3.425343,324532.8,4.110232e+007
40.75,1.358437,354.8767,39.85942,0,0,3.502409,3.44247,325686.2,4.125546e+007
40.952,1.365,356.1395,40.00126,0,0,3.519329,3.458816,326845.1,4.140903e+007
41.14,1.371562,357.3973,40.14254,0,0,3.536248,3.475159,327999.5,4.156208e+007
41.288,1.377344,358.6506,40.2833,0,0,3.551154,3.489555,329149.7,4.171382e+007
41.488,1.383906,359.9025,40.42391,0,0,3.568074,3.505893,330298.6,4.186627e+007
41.758,1.391719,361.1601,40.56516,0,0,3.588217,3.52534,331452.7,4.202073e+007
41.966,1.398594,362.4189,40.70655,0,0,3.605942,3.54245,332607.9,4.21744e+007
42.114,1.404687,363.6727,40.84738,0,0,3.621654,3.557613,333758.7,4.232673e+007
42.304,1.410937,364.9253,40.98807,0,0,3.637768,3.573163,334908.2,4.247912e+007
42.554,1.418594,366.1816,41.12918,0,0,3.657508,3.592208,336061.2,4.263348e+007
42.756,1.425469,367.4346,41.26991,0,0,3.675233,3.609307,337211.1,4.278667e+007
42.952,1.432344,368.6858,41.41045,0,0,3.692959,3.626402,338359.4,4.293972e+007
43.142,1.438906,369.9426,41.55161,0,0,3.709878,3.642719,339512.8,4.309312e+007
43.396,1.446562,371.1995,41.69279,0,0,3.729618,3.66175,340666.4,4.324777e+007
43.61,1.45375,372.4538,41.83366,0,0,3.74815,3.679614,341817.4,4.340165e+007
43.794,1.460625,373.7057,41.97427,0,0,3.765875,3.696697,342966.4,4.355497e+007
43.98,1.467344,374.9573,42.11486,0,0,3.783198,3.71339,344115.1,4.370814e+007
44.276,1.475781,376.2163,42.25626,0,0,3.804952,3.734349,345270.5,4.38641e+007
44.498,1.483281,377.475,42.39764,0,0,3.824289,3.752975,346425.7,4.401905e+007
44.672,1.49,378.7306,42.53867,0,0,3.841612,3.769659,347578,4.417284e+007
44.882,1.497031,379.9848,42.67954,0,0,3.85974,3.787115,348729,4.432686e+007
45.178,1.505937,381.2419,42.82073,0,0,3.882703,3.809222,349882.7,4.448333e+007
45.418,1.513906,382.4983,42.96185,0,0,3.903248,3.828997,351035.8,4.463876e+007
45.598,1.520781,383.7504,43.10249,0,0,3.920974,3.846056,352184.8,4.479252e+007
45.864,1.528906,385.0033,43.24321,0,0,3.941922,3.866212,353334.7,4.494783e+007
46.106,1.537031,386.2618,43.38457,0,0,3.962871,3.886364,354489.7,4.510384e+007
46.34,1.545312,387.5182,43.52568,0,0,3.984222,3.906899,355642.7,4.525984e+007
46.534,1.5525,388.7724,43.66655,0,0,4.002753,3.924719,356793.8,4.541441e+007
46.87,1.562031,390.0278,43.80756,0,0,4.027327,3.948344,357945.9,4.557183e+007
47.112,1.570156,391.2853,43.9488,0,0,4.048275,3.968479,359099.9,4.572796e+007
47.292,1.577344,392.538,44.0895,0,0,4.066807,3.986288,360249.6,4.588254e+007
47.608,1.587031,393.7891,44.23003,0,0,4.091784,4.010286,361397.8,4.603982e+007
47.876,1.595937,395.047,44.37131,0,0,4.114747,4.032344,362552.3,4.619708e+007
48.102,1.603906,396.299,44.51193,0,0,4.135292,4.052075,363701.3,4.635263e+007
48.358,1.612344,397.554,44.65289,0,0,4.157046,4.072964,364853,4.650913e+007
48.662,1.622031,398.805,44.7934,0,0,4.182023,4.09694,366001.1,4.666667e+007
48.906,1.630937,400.0675,44.9352,0,0,4.204986,4.118979,367159.8,4.682472e+007
49.164,1.639531,401.3197,45.07585,0,0,4.227142,4.140239,368309,4.698127e+007
49.502,1.65,402.578,45.21719,0,0,4.254134,4.166132,369463.8,4.714079e+007
49.728,1.658437,403.8287,45.35766,0,0,4.275888,4.186997,370611.6,4.72971e+007
50.026,1.668281,405.0794,45.49814,0,0,4.301268,4.211333,371759.4,4.745514e+007
50.386,1.679531,406.3309,45.63871,0,0,4.330273,4.239138,372908,4.761499e+007
50.646,1.688594,407.5831,45.77935,0,0,4.353639,4.261532,374057.2,4.777242e+007
50.948,1.698593,408.8347,45.91993,0,0,4.379421,4.286236,375205.8,4.793095e+007
51.284,1.709687,410.0926,46.06122,0,0,4.408024,4.313634,376360.3,4.809161e+007
51.512,1.71875,411.3453,46.20192,0,0,4.431389,4.336011,377510,4.824931e+007
51.966,1.731875,412.6016,46.34303,0,0,4.465229,4.368409,378662.9,4.841235e+007
52.262,1.7425,413.8565,46.48397,0,0,4.492623,4.394629,379814.6,4.857233e+007
52.514,1.751719,415.1124,46.62504,0,0,4.516391,4.417373,380967.2,4.873081e+007
52.966,1.765469,416.366,46.76583,0,0,4.551842,4.451286,382117.6,4.889454e+007
53.228,1.775,417.62,46.90669,0,0,4.576416,4.474788,383268.5,4.905334e+007
53.656,1.78875,418.8718,47.04728,0,0,4.611868,4.508682,384417.3,4.921704e+007
54.006,1.801094,420.1326,47.1889,0,0,4.643693,4.5391,385574.5,4.938021e+007
54.438,1.814531,421.3856,47.32963,0,0,4.678339,4.572202,386724.3,4.954387e+007
54.816,1.827656,422.6379,47.4703,0,0,4.712178,4.604524,387873.7,4.970718e+007
55.248,1.842031,423.89,47.61092,0,0,4.749241,4.639912,389022.7,4.987208e+007
55.72,1.8575,425.1444,47.75182,0,0,4.789124,4.67798,390174,5.003872e+007
56.162,1.872031,426.398,47.89262,0,0,4.826589,4.713726,391324.5,5.020421e+007
56.584,1.887343,427.6503,48.03328,0,0,4.866068,4.751381,392473.8,5.037061e+007
57.232,1.9075,428.9018,48.17385,0,0,4.918036,4.800925,393622.3,5.054306e+007
57.632,1.922344,430.1529,48.31437,0,0,4.956307,4.837396,394770.5,5.070898e+007
58.376,1.946562,431.4053,48.45504,0,0,5.01875,4.896872,395919.9,5.088688e+007
59.286,1.976875,432.6592,48.59588,0,0,5.096903,4.971263,397070.7,5.107276e+007
60.286,2.009843,433.6421,48.70628,0,0,5.181905,5.052109,397972.7,5.123019e+007
61.286,2.043125,434.2895,48.77899,0,0,5.267713,5.133656,398566.8,5.134853e+007
62.286,2.07625,434.4603,48.79818,0,0,5.353118,5.214755,398723.6,5.14104e+007
63.286,2.109531,434.1865,48.76742,0,0,5.438926,5.29617,398472.3,5.141984e+007
63.78,2.126249,432.9347,48.62682,0,0,5.482031,5.337043,397323.5,5.129256e+007
63.844,2.128437,431.5933,48.47615,0,0,5.487671,5.34239,396092.4,5.113637e+007
63.852,2.129531,429.3775,48.22728,0,0,5.490491,5.345063,394058.9,5.08752e+007
63.854,2.130937,423.7577,47.59607,0,0,5.494117,5.3485,388901.3,5.021105e+007
63.856,2.132343,411.8128,46.25443,0,0,5.497742,5.351937,377939,4.879738e+007
63.858,2.133906,394.2983,44.28722,0,0,5.501771,5.355755,361865.1,4.67238e+007
63.86,2.135625,374.0765,42.01592,0,0,5.506202,5.359956,343306.7,4.43294e+007
63.862,2.137187,352.3708,39.57796,0,0,5.510231,5.363774,323386.4,4.17588e+007
63.864,2.13875,328.5,36.89682,0,0,5.51426,5.367592,301479.1,3.89314e+007
63.866,2.14,302.6507,33.99345,0,0,5.517482,5.370646,277756.1,3.586903e+007
63.868,2.140937,276.3442,31.03873,0,0,5.519899,5.372937,253613.4,3.275203e+007
63.87,2.141718,250.5585,28.1425,0,0,5.521914,5.374846,229948.7,2.96965e+007
"Specimen",2
"Width:",5.842000,"mm"
"Thickness:",1.524000,"mm"
"Length:",38.7858,"mm"
"Diameter:",1.000000,"mm"
"Inner diameter:",0.500000,"mm"
"Outer diameter:",1.000000,"mm"
"Wall thickness:",0.500000,"mm"
"Area:",8.903208,"mm*mm"
"Linear density:",1.000000,"den"
"Sled weight:",9.806650,"N"
"Loading span:",0.000000,"mm"
"Support span:",1.000000,"mm"
"Span ratio:","2"
"Fixture type:","3-point"
"Comment:",""
"Included"
"Time sec","Extension mm","Load N","Stress MPa","Cycle Count ","Total Cycle Count ","Strain [Exten.] %","True strain %","Tenacity gf/tex","True stress Pa"
0,0.0003125,-0.2313377,-0.02598363,0,0,0.0008057071,0.0008057039,-212.3089,-25983.84
0.374,0.009531248,2.293918,0.2576508,0,0,0.02457407,0.02457105,2105.231,257714.1
0.492,0.01625,4.832123,0.5427395,0,0,0.04189677,0.04188799,4434.655,542966.9
0.71,0.02375,7.340406,0.8244675,0,0,0.06123374,0.061215,6736.618,824972.3
0.958,0.03140625,9.852917,1.10667,0,0,0.08097357,0.0809408,9042.461,1107567
1.176,0.03906249,12.37942,1.390445,0,0,0.1007134,0.1006627,11361.15,1391846
1.4,0.04687499,14.89832,1.673365,0,0,0.1208561,0.1207831,13672.85,1675388
1.652,0.05499999,17.41768,1.956338,0,0,0.1418045,0.141704,15984.99,1959112
1.88,0.06312499,19.92853,2.238354,0,0,0.1627528,0.1626205,18289.3,2241997
2.104,0.07078124,22.44465,2.520962,0,0,0.1824927,0.1823263,20598.45,2525562
2.37,0.07890624,24.97038,2.80465,0,0,0.2034411,0.2032344,22916.43,2810356
2.612,0.08687498,27.50722,3.089585,0,0,0.2239866,0.2237361,25244.6,3096506
2.832,0.09484374,30.02542,3.372427,0,0,0.2445321,0.2442336,27555.67,3380674
3.052,0.1028125,32.55399,3.656434,0,0,0.2650777,0.2647269,29876.25,3666126
3.328,0.1109375,35.07433,3.939516,0,0,0.286026,0.2856178,32189.27,3950784
3.57,0.1189062,37.58418,4.22142,0,0,0.3065716,0.3061026,34492.68,4234362
3.784,0.1267187,40.1044,4.504489,0,0,0.3267142,0.3261817,36805.6,4519206
4.028,0.1346875,42.62239,4.787307,0,0,0.3472598,0.3466582,39116.47,4803932
4.282,0.1429687,45.13744,5.069795,0,0,0.368611,0.3679333,41424.64,5088483
4.524,0.1510937,47.65097,5.352112,0,0,0.3895594,0.3888026,43731.42,5372962
4.762,0.1590625,50.1854,5.636777,0,0,0.4101049,0.4092663,46057.38,5659894
5.02,0.1671875,52.70104,5.919332,0,0,0.4310533,0.4301269,48366.1,5944848
5.258,0.1753125,55.22437,6.20275,0,0,0.4520017,0.4509832,50681.87,6230786
5.462,0.1832812,57.75961,6.487505,0,0,0.4725472,0.4714342,53008.57,6518161
5.73,0.1914062,60.26444,6.768846,0,0,0.4934956,0.4922819,55307.37,6802250
5.998,0.1995312,62.77385,7.050701,0,0,0.514444,0.5131253,57610.36,7086972
6.222,0.2075,65.29419,7.333783,0,0,0.5349895,0.5335635,59923.39,7373017
6.43,0.2151562,67.82,7.617479,0,0,0.5547293,0.5531964,62241.44,7659735
6.698,0.2235937,70.35867,7.90262,0,0,0.5764835,0.5748282,64571.29,7948177
6.94,0.231875,72.87075,8.184775,0,0,0.5978347,0.5960548,66876.74,8233706
7.186,0.2396875,75.37242,8.46576,0,0,0.6179774,0.6160757,69172.63,8518076
7.424,0.2476562,77.91401,8.751228,0,0,0.6385229,0.6364929,71505.16,8807107
7.684,0.2559375,80.43983,9.034926,0,0,0.6598741,0.6577065,73823.22,9094545
7.914,0.2643749,82.96063,9.31806,0,0,0.6816282,0.6793156,76136.66,9381575
8.132,0.2723437,85.47623,9.600611,0,0,0.7021737,0.69972,78445.35,9668024
8.422,0.280625,88.00444,9.884577,0,0,0.723525,0.7209201,80765.6,9956094
8.664,0.28875,90.51742,10.16683,0,0,0.7444734,0.7417159,83071.88,1.024252e+007
8.876,0.2965624,93.03157,10.44922,0,0,0.764616,0.7617077,85379.22,1.052912e+007
9.132,0.3049999,95.56536,10.73381,0,0,0.7863701,0.7832943,87704.59,1.081822e+007
9.39,0.3132812,98.08229,11.01651,0,0,0.8077214,0.8044768,90014.49,1.110549e+007
9.65,0.3217187,100.605,11.29986,0,0,0.8294755,0.8260542,92329.71,1.139359e+007
9.876,0.3295312,103.1315,11.58363,0,0,0.8496182,0.8460292,94648.37,1.168205e+007
10.128,0.3376562,105.6452,11.86597,0,0,0.8705665,0.866799,96955.31,1.196927e+007
10.366,0.3459374,108.1623,12.14869,0,0,0.8919178,0.8879637,99265.38,1.225705e+007
10.594,0.3540624,110.684,12.43192,0,0,0.9128662,0.9087247,101579.6,1.254541e+007
10.87,0.3623437,113.196,12.71407,0,0,0.9342175,0.9298806,103885,1.283285e+007
11.128,0.3706249,115.717,12.99722,0,0,0.9555686,0.951032,106198.6,1.312142e+007
11.354,0.3789062,118.247,13.28139,0,0,0.9769199,0.9721789,108520.5,1.341114e+007
11.57,0.3867187,120.7647,13.56418,0,0,0.9970626,0.9921247,110831.1,1.369942e+007
11.852,0.3951562,123.273,13.8459,0,0,1.018817,1.013662,113133.1,1.398697e+007
12.102,0.4035937,125.7866,14.12823,0,0,1.040571,1.035194,115440,1.427525e+007
12.35,0.4120312,128.3157,14.4123,0,0,1.062325,1.056722,117761,1.45654e+007
12.598,0.4199999,130.8371,14.6955,0,0,1.08287,1.077049,120075.1,1.485464e+007
12.852,0.4284375,133.3628,14.97919,0,0,1.104625,1.098568,122393,1.514465e+007
13.088,0.4370312,135.8655,15.26028,0,0,1.126781,1.120481,124689.8,1.543223e+007
13.338,0.4451562,138.3711,15.54171,0,0,1.14773,1.141193,126989.3,1.572009e+007
13.61,0.4534374,140.8759,15.82305,0,0,1.169081,1.1623,129288.1,1.600804e+007
13.85,0.4618749,143.4045,16.10706,0,0,1.190835,1.1838,131608.7,1.629887e+007
14.068,0.4699999,145.9185,16.38943,0,0,1.211784,1.2045,133915.9,1.658803e+007
14.344,0.4784374,148.4375,16.67236,0,0,1.233538,1.225992,136227.7,1.687802e+007
14.612,0.486875,150.9678,16.95656,0,0,1.255292,1.247478,138549.8,1.716941e+007
14.85,0.4951562,153.5007,17.24106,0,0,1.276643,1.268563,140874.4,1.746116e+007
15.096,0.5034374,156.0165,17.52362,0,0,1.297994,1.289642,143183.3,1.775108e+007
15.362,0.5120311,158.5531,17.80853,0,0,1.320151,1.311513,145511.2,1.804363e+007
15.59,0.5207811,161.0767,18.09199,0,0,1.342711,1.333776,147827.3,1.833491e+007
15.848,0.5289061,163.5947,18.3748,0,0,1.363659,1.354445,150138.1,1.862537e+007
16.136,0.5374999,166.1126,18.65762,0,0,1.385816,1.376302,152449,1.891618e+007
16.378,0.5459374,168.6228,18.93956,0,0,1.40757,1.397756,154752.7,1.920614e+007
16.608,0.5543749,171.1443,19.22277,0,0,1.429324,1.419206,157066.8,1.949752e+007
16.876,0.5629687,173.6588,19.50519,0,0,1.451481,1.441048,159374.4,1.978831e+007
17.144,0.5714062,176.1725,19.78753,0,0,1.473235,1.462489,161681.3,2.007904e+007
17.378,0.5798436,178.6943,20.07078,0,0,1.49499,1.483925,163995.8,2.037084e+007
17.632,0.5881249,181.209,20.35323,0,0,1.516341,1.504959,166303.6,2.066185e+007
17.91,0.5970311,183.7405,20.63756,0,0,1.539303,1.527576,168626.8,2.095523e+007
18.158,0.6057812,186.2622,20.92079,0,0,1.561863,1.549792,170941.1,2.124755e+007
18.41,0.6140624,188.7823,21.20386,0,0,1.583215,1.570812,173254,2.153956e+007
18.688,0.6226561,191.2879,21.48528,0,0,1.605371,1.592622,175553.4,2.183019e+007
18.94,0.6312499,193.8082,21.76835,0,0,1.627528,1.614426,177866.4,2.212264e+007
19.154,0.6399999,196.3502,22.05388,0,0,1.650088,1.636622,180199.4,2.241778e+007
19.46,0.6490624,198.8738,22.33732,0,0,1.673454,1.659606,182515.3,2.271112e+007
19.752,0.6578124,201.4041,22.62152,0,0,1.696013,1.681792,184837.5,2.300518e+007
19.974,0.6662499,203.9406,22.90641,0,0,1.717768,1.703181,187165.4,2.329989e+007
20.236,0.6748437,206.4419,23.18736,0,0,1.739925,1.724961,189460.9,2.35908e+007
20.514,0.6840624,208.9522,23.46932,0,0,1.763693,1.74832,191764.8,2.388325e+007
20.752,0.6928124,211.4741,23.75257,0,0,1.786253,1.770487,194079.2,2.417686e+007
21.03,0.7012499,214.0033,24.03665,0,0,1.808007,1.791857,196400.3,2.447123e+007
21.316,0.7103124,216.5341,24.32091,0,0,1.831372,1.814805,198723,2.476632e+007
21.562,0.7192186,219.0464,24.60308,0,0,1.854335,1.837352,201028.6,2.505931e+007
21.794,0.7278124,221.5681,24.88632,0,0,1.876492,1.859103,203343,2.535331e+007
22.122,0.7371874,224.0724,25.1676,0,0,1.900663,1.882826,205641.2,2.564595e+007
22.382,0.7460936,226.5991,25.4514,0,0,1.923626,1.905358,207960.1,2.594099e+007
22.612,0.7548436,229.1123,25.73368,0,0,1.946186,1.92749,210266.6,2.623451e+007
22.906,0.7639062,231.628,26.01624,0,0,1.969551,1.950406,212575.4,2.652865e+007
23.192,0.7732812,234.1415,26.29856,0,0,1.993722,1.974108,214882.1,2.682288e+007
23.444,0.7821874,236.6619,26.58165,0,0,2.016685,1.996619,217195.2,2.711772e+007
23.736,0.7910936,239.1723,26.86361,0,0,2.039648,2.019125,219499,2.741153e+007
24.006,0.8003124,241.6846,27.14579,0,0,2.063416,2.042416,221804.8,2.770592e+007
24.244,0.8093749,244.2115,27.42961,0,0,2.086782,2.065306,224123.8,2.8002e+007
24.58,0.8190624,246.7238,27.71178,0,0,2.111758,2.08977,226429.4,2.829699e+007
24.864,0.8282812,249.24,27.9944,0,0,2.135527,2.113044,228738.6,2.859223e+007
25.084,0.8373436,251.7542,28.2768,0,0,2.158892,2.135918,231046,2.888726e+007
25.39,0.8468749,254.2655,28.55887,0,0,2.183466,2.15997,233350.8,2.918244e+007
25.684,0.8565624,256.7697,28.84013,0,0,2.208443,2.184411,235649,2.947705e+007
25.974,0.8660936,259.3014,29.12449,0,0,2.233017,2.20845,237972.4,2.977484e+007
26.266,0.8754687,261.8223,29.40764,0,0,2.257189,2.232091,240286,3.007143e+007
26.56,0.8854686,264.3407,29.6905,0,0,2.282971,2.257301,242597.2,3.036832e+007
26.82,0.8954686,266.8605,29.97352,0,0,2.308754,2.282505,244909.8,3.066553e+007
27.176,0.9056249,269.3738,30.25581,0,0,2.334939,2.308097,247216.4,3.096227e+007
27.464,0.9154686,271.892,30.53866,0,0,2.360319,2.332894,249527.5,3.125947e+007
27.722,0.9256249,274.4288,30.82359,0,0,2.386505,2.358473,251855.6,3.15592e+007
28.086,0.9362499,276.946,31.10632,0,0,2.413899,2.385225,254165.7,3.18572e+007
28.406,0.9468749,279.463,31.38902,0,0,2.441293,2.411969,256475.7,3.215532e+007
28.694,0.9567186,281.979,31.67162,0,0,2.466672,2.436741,258784.7,3.245286e+007
29.014,0.9673436,284.482,31.95275,0,0,2.494066,2.463472,261081.8,3.274968e+007
29.308,0.9781248,286.9983,32.23538,0,0,2.521863,2.490589,263391.1,3.304831e+007
29.696,0.9895311,289.5185,32.51845,0,0,2.551271,2.51927,265704.1,3.334809e+007
30.016,1.000156,292.0382,32.80146,0,0,2.578665,2.545979,268016.5,3.36473e+007
30.284,1.010781,294.5524,33.08385,0,0,2.60606,2.57268,270323.9,3.394604e+007
30.676,1.022656,297.0637,33.36592,0,0,2.636677,2.602515,272628.6,3.424567e+007
30.986,1.033281,299.5897,33.64964,0,0,2.664071,2.629202,274946.8,3.454609e+007
31.294,1.043281,302.1032,33.93195,0,0,2.689853,2.654312,277253.6,3.484467e+007
31.61,1.05375,304.6148,34.21405,0,0,2.716844,2.680593,279558.6,3.514359e+007
31.894,1.064062,307.1291,34.49645,0,0,2.743433,2.706475,281866.1,3.544284e+007
32.23,1.074219,309.6507,34.77967,0,0,2.769618,2.731958,284180.3,3.574294e+007
32.53,1.084219,312.1758,35.0633,0,0,2.795401,2.757043,286497.7,3.604346e+007
32.788,1.094219,314.7103,35.34797,0,0,2.821183,2.782121,288823.7,3.63452e+007
33.136,1.104844,317.2353,35.63157,0,0,2.848577,2.80876,291140.9,3.664656e+007
33.468,1.115312,319.7491,35.91393,0,0,2.875569,2.835,293448.1,3.694665e+007
33.72,1.124843,322.2539,36.19526,0,0,2.900143,2.858884,295746.8,3.724497e+007
34.064,1.135469,324.7758,36.47851,0,0,2.927537,2.885503,298061.2,3.754643e+007
34.338,1.145937,327.2825,36.76006,0,0,2.954528,2.911723,300361.7,3.784615e+007
34.698,1.156562,329.8034,37.04321,0,0,2.981922,2.938327,302675.3,3.814781e+007
35.016,1.166875,332.3053,37.32422,0,0,3.00851,2.964142,304971.4,3.844712e+007
35.286,1.177031,334.8306,37.60785,0,0,3.034696,2.98956,307288.9,3.874914e+007
[...]
30.882,1.029219,284.1627,31.91689,0,0,2.653596,2.618999,260788.8,3.276383e+007
31.194,1.039844,286.6753,32.1991,0,0,2.68099,2.645681,263094.8,3.306236e+007
31.462,1.05,289.204,32.48312,0,0,2.707176,2.67118,265415.4,3.33625e+007
31.852,1.061406,291.7123,32.76485,0,0,2.736584,2.699809,267717.4,3.366149e+007
32.138,1.071719,294.2314,33.04779,0,0,2.763172,2.725686,270029.3,3.396096e+007
32.412,1.08125,296.7536,33.33108,0,0,2.787746,2.749596,272344,3.426027e+007
32.784,1.092969,299.2696,33.61368,0,0,2.817961,2.778986,274653,3.45609e+007
33.092,1.103437,301.7878,33.89652,0,0,2.844952,2.805234,276964.1,3.486086e+007
33.414,1.11375,304.3077,34.17955,0,0,2.87154,2.831084,279276.7,3.516103e+007
33.73,1.124375,306.8211,34.46186,0,0,2.898934,2.85771,281583.4,3.546089e+007
34.004,1.135156,309.3516,34.74608,0,0,2.926731,2.88472,283905.8,3.576301e+007
34.4,1.14625,311.8608,35.02791,0,0,2.955334,2.912505,286208.5,3.60631e+007
34.692,1.156875,314.3808,35.31096,0,0,2.982728,2.93911,288521.3,3.636419e+007
34.998,1.167187,316.8892,35.59269,0,0,3.009316,2.964925,290823.3,3.666379e+007
35.346,1.178593,319.3977,35.87445,0,0,3.038724,2.993469,293125.5,3.696457e+007
35.67,1.189375,321.9007,36.15558,0,0,3.066521,3.020443,295422.6,3.72643e+007
36.014,1.200312,324.4071,36.43711,0,0,3.094721,3.0478,297722.9,3.756473e+007
36.338,1.211719,326.9369,36.72125,0,0,3.124129,3.076322,300044.6,3.786847e+007
36.64,1.2225,329.452,37.00374,0,0,3.151926,3.103273,302352.8,3.817007e+007
37.034,1.234375,331.9631,37.28579,0,0,3.182543,3.13295,304657.3,3.847242e+007
37.322,1.244844,334.4806,37.56855,0,0,3.209534,3.159105,306967.8,3.877432e+007
37.708,1.257187,336.9846,37.8498,0,0,3.24136,3.189936,309265.8,3.907665e+007
38.084,1.269375,339.4924,38.13147,0,0,3.272782,3.220367,311567.3,3.937943e+007
38.396,1.280156,341.9992,38.41303,0,0,3.300579,3.24728,313867.9,3.968088e+007
38.752,1.292031,344.5206,38.69623,0,0,3.331196,3.276914,316181.9,3.998528e+007
39.082,1.303906,347.0273,38.97779,0,0,3.361813,3.30654,318482.5,4.028815e+007
39.516,1.316719,349.5463,39.26071,0,0,3.394847,3.338494,320794.2,4.059355e+007
39.826,1.328125,352.0742,39.54464,0,0,3.424255,3.366933,323114.2,4.089875e+007
40.218,1.340781,354.5922,39.82747,0,0,3.456886,3.398478,325425.1,4.120426e+007
40.592,1.353281,357.1013,40.10928,0,0,3.489115,3.429625,327727.8,4.150874e+007
40.918,1.364531,359.6159,40.39172,0,0,3.51812,3.457648,330035.6,4.181275e+007
41.328,1.377656,362.1353,40.6747,0,0,3.55196,3.490333,332347.7,4.211945e+007
41.67,1.390156,364.6405,40.95608,0,0,3.584188,3.521451,334646.8,4.242402e+007
42.088,1.402656,367.1464,41.23754,0,0,3.616416,3.552559,336946.6,4.272886e+007
42.406,1.414531,369.6716,41.52117,0,0,3.647033,3.582103,339264.2,4.303546e+007
42.844,1.428437,372.1772,41.80259,0,0,3.682887,3.616689,341563.6,4.334213e+007
43.234,1.44125,374.6868,42.08447,0,0,3.715921,3.648545,343866.8,4.36483e+007
43.63,1.454375,377.1982,42.36654,0,0,3.749761,3.681167,346171.6,4.395519e+007
44.014,1.468125,379.7037,42.64797,0,0,3.785212,3.715331,348471,4.426228e+007
44.478,1.482344,382.2183,42.9304,0,0,3.821872,3.750647,350778.8,4.457115e+007
44.882,1.49625,384.7347,43.21304,0,0,3.857726,3.785176,353088.2,4.488008e+007
45.27,1.509687,387.2423,43.4947,0,0,3.892371,3.818528,355389.6,4.518767e+007
45.754,1.525469,389.7633,43.77785,0,0,3.933059,3.857685,357703.1,4.549965e+007
46.202,1.540156,392.2782,44.06032,0,0,3.970928,3.894113,360011.2,4.580993e+007
46.648,1.555469,394.7823,44.34158,0,0,4.010407,3.932078,362309.3,4.611985e+007
47.15,1.571406,397.2904,44.62329,0,0,4.051498,3.971577,364611.2,4.64312e+007
47.542,1.586094,399.8013,44.90531,0,0,4.089366,4.007964,366915.5,4.674165e+007
48.188,1.605781,402.3108,45.18718,0,0,4.140126,4.056717,369218.6,4.705798e+007
48.646,1.622031,404.8169,45.46866,0,0,4.182023,4.09694,371518.5,4.737017e+007
49.2,1.641094,407.3365,45.75166,0,0,4.231171,4.144104,373830.9,4.768749e+007
49.844,1.66125,409.8461,46.03353,0,0,4.283139,4.193951,376134,4.800521e+007
50.446,1.681719,412.3509,46.31487,0,0,4.335913,4.244544,378432.8,4.832304e+007
51.032,1.702031,414.8613,46.59684,0,0,4.388284,4.294726,380736.7,4.864164e+007
51.786,1.726719,417.37,46.8786,0,0,4.451935,4.355682,383039,4.896561e+007
52.558,1.752656,419.8804,47.16058,0,0,4.518809,4.419686,385343,4.929168e+007
53.432,1.781562,422.3832,47.44168,0,0,4.593336,4.490965,387639.9,4.962084e+007
54.476,1.816718,424.8999,47.72437,0,0,4.683979,4.57759,389949.6,4.995976e+007
55.952,1.865,427.4114,48.00645,0,0,4.80846,4.696431,392254.5,5.031482e+007
57.938,1.932187,429.0572,48.1913,0,0,4.981687,4.861574,393764.9,5.059204e+007
59.9,1.996718,427.1972,47.98238,0,0,5.148066,5.019932,392057.9,5.045255e+007
60.988,2.032812,424.6879,47.70054,0,0,5.241124,5.108395,389755,5.020059e+007
61.736,2.057812,422.1826,47.41916,0,0,5.305582,5.169624,387455.8,4.993502e+007
62.376,2.079218,419.6748,47.13748,0,0,5.360772,5.22202,385154.3,4.966442e+007
62.94,2.099375,417.1716,46.85632,0,0,5.41274,5.271332,382856.9,4.939253e+007
63.29,2.109375,414.6569,46.57388,0,0,5.438523,5.295788,380549.2,4.910681e+007
63.722,2.124843,412.1518,46.2925,0,0,5.478405,5.333606,378250,4.882859e+007
64.04,2.135312,409.6406,46.01045,0,0,5.505397,5.359192,375945.5,4.854351e+007
64.316,2.14375,407.1086,45.72606,0,0,5.527151,5.379808,373621.7,4.825341e+007
64.634,2.155312,404.5779,45.44181,0,0,5.556962,5.408054,371299.2,4.7967e+007
64.876,2.162968,402.0602,45.15903,0,0,5.576702,5.426753,368988.6,4.767741e+007
65.094,2.17,399.5397,44.87593,0,0,5.59483,5.443922,366675.4,4.738666e+007
65.298,2.176718,397.0247,44.59344,0,0,5.612153,5.460326,364367.3,4.709609e+007
65.5,2.183906,394.4964,44.30947,0,0,5.630684,5.477871,362047,4.68044e+007
65.67,2.189375,391.9724,44.02597,0,0,5.644783,5.491218,359730.6,4.651115e+007
65.82,2.193906,389.4352,43.741,0,0,5.656467,5.502277,357402.1,4.62152e+007
65.964,2.19875,386.9118,43.45757,0,0,5.668955,5.514096,355086.2,4.592116e+007
66.096,2.203281,384.3753,43.17267,0,0,5.680638,5.525151,352758.3,4.562515e+007
66.22,2.208593,381.8316,42.88697,0,0,5.694335,5.538111,350423.9,4.532909e+007
66.332,2.212812,379.2471,42.59668,0,0,5.705212,5.548402,348052,4.502691e+007
66.424,2.215625,376.6834,42.30872,0,0,5.712463,5.555261,345699.1,4.472559e+007
66.502,2.217656,374.0872,42.01712,0,0,5.7177,5.560215,343316.5,4.441953e+007
66.574,2.219687,371.5425,41.73131,0,0,5.722937,5.565169,340981.2,4.411957e+007
66.642,2.221875,368.9964,41.44532,0,0,5.728578,5.570504,338644.4,4.381955e+007
66.706,2.22375,366.3962,41.15328,0,0,5.733412,5.575076,336258.1,4.351276e+007
66.764,2.225468,363.7998,40.86166,0,0,5.737843,5.579267,333875.3,4.320623e+007
66.818,2.227187,361.2339,40.57346,0,0,5.742275,5.583458,331520.5,4.29033e+007
66.87,2.22875,358.5747,40.27477,0,0,5.746303,5.587267,329080,4.258908e+007
66.918,2.230312,355.9515,39.98014,0,0,5.750332,5.591077,326672.6,4.227913e+007
66.962,2.231875,353.3835,39.6917,0,0,5.75436,5.594886,324315.8,4.197571e+007
67.004,2.233281,350.77,39.39816,0,0,5.757986,5.598314,321917.3,4.16667e+007
67.044,2.234687,348.1076,39.09912,0,0,5.761611,5.601743,319473.8,4.135186e+007
67.084,2.236562,345.3595,38.79045,0,0,5.766446,5.606313,316951.8,4.102728e+007
67.122,2.238125,342.6716,38.48856,0,0,5.770474,5.610122,314485,4.070953e+007
67.156,2.239218,340.0163,38.19032,0,0,5.773294,5.612789,312048.2,4.039516e+007
67.188,2.240312,337.3536,37.89124,0,0,5.776114,5.615454,309604.4,4.007988e+007
67.22,2.24125,334.5676,37.57832,0,0,5.778532,5.61774,307047.6,3.97498e+007
67.248,2.242343,332.0413,37.29457,0,0,5.781351,5.620405,304729.1,3.94507e+007
67.276,2.243593,329.4915,37.00818,0,0,5.784574,5.623452,302389,3.914894e+007
67.304,2.244531,326.9045,36.71761,0,0,5.786992,5.625737,300014.9,3.884246e+007
67.332,2.245468,324.211,36.41507,0,0,5.789408,5.628022,297542.9,3.852329e+007
67.36,2.24625,321.4278,36.10247,0,0,5.791423,5.629926,294988.6,3.819332e+007
67.388,2.247031,318.5935,35.78413,0,0,5.793437,5.63183,292387.5,3.785726e+007
67.416,2.247812,315.7407,35.4637,0,0,5.795451,5.633734,289769.3,3.751898e+007
67.444,2.24875,312.9058,35.14529,0,0,5.797868,5.636018,287167.7,3.718297e+007
67.472,2.249531,310.0817,34.82808,0,0,5.799882,5.637922,284575.8,3.684807e+007
67.5,2.250468,307.301,34.51576,0,0,5.802299,5.640207,282023.8,3.651847e+007
67.528,2.25125,304.5758,34.20967,0,0,5.804314,5.64211,279522.8,3.619531e+007
67.556,2.252187,301.9049,33.90968,0,0,5.806731,5.644395,277071.6,3.587872e+007
67.584,2.253124,299.3051,33.61767,0,0,5.809148,5.646679,274685.7,3.557057e+007
67.612,2.254062,296.7787,33.33391,0,0,5.811565,5.648964,272367.1,3.527113e+007
67.644,2.255156,294.0049,33.02236,0,0,5.814385,5.651629,269821.4,3.49424e+007
67.676,2.25625,291.3415,32.7232,0,0,5.817205,5.654294,267377,3.462678e+007
67.708,2.257343,288.7973,32.43744,0,0,5.820025,5.656959,265042.1,3.432531e+007
67.744,2.258593,286.0793,32.13216,0,0,5.823248,5.660005,262547.8,3.40033e+007
67.78,2.26,283.5239,31.84514,0,0,5.826873,5.66343,260202.5,3.370072e+007
67.82,2.261406,280.8417,31.54388,0,0,5.830499,5.666857,257741,3.338305e+007
67.862,2.262968,278.2132,31.24864,0,0,5.834528,5.670663,255328.6,3.307185e+007
67.908,2.264843,275.5649,30.95119,0,0,5.839362,5.675231,252898.2,3.275854e+007
67.96,2.267031,272.9499,30.65747,0,0,5.845002,5.680559,250498.3,3.24494e+007
68.012,2.268437,270.3741,30.36816,0,0,5.848628,5.683985,248134.3,3.214428e+007
68.066,2.269843,267.7821,30.07703,0,0,5.852253,5.68741,245755.6,3.183722e+007
68.13,2.272031,265.1764,29.78436,0,0,5.857893,5.692738,243364.2,3.15291e+007
68.198,2.273906,262.601,29.4951,0,0,5.862728,5.697305,241000.6,3.122431e+007
68.272,2.275937,260.0362,29.20702,0,0,5.867965,5.702251,238646.8,3.092088e+007
68.36,2.278593,257.4258,28.91383,0,0,5.874814,5.70872,236251.2,3.061246e+007
68.464,2.281875,254.854,28.62496,0,0,5.883274,5.716711,233890.8,3.030904e+007
68.586,2.285937,252.3296,28.34142,0,0,5.893747,5.726602,231574.1,3.001179e+007
68.742,2.291718,249.7845,28.05556,0,0,5.908653,5.740677,229238.4,2.971327e+007
68.968,2.300625,247.254,27.77134,0,0,5.931615,5.762356,226916,2.941863e+007
69.184,2.306562,244.7304,27.48788,0,0,5.946924,5.776807,224600,2.912257e+007
69.538,2.317812,242.221,27.20604,0,0,5.975929,5.80418,222297,2.883185e+007
70.392,2.346718,239.7122,26.92426,0,0,6.050458,5.874481,219994.6,2.85533e+007
72.372,2.413437,241.1544,27.08623,0,0,6.222476,6.036554,221318.1,2.877167e+007
73.902,2.464062,243.666,27.36833,0,0,6.353001,6.159357,223623.1,2.910704e+007
75.384,2.512968,246.1697,27.64955,0,0,6.479094,6.277848,225920.9,2.944099e+007
77.104,2.569687,248.598,27.92229,0,0,6.625329,6.415091,228149.4,2.977223e+007
79.104,2.637656,250.5199,28.13816,0,0,6.800571,6.579309,229913.3,3.005171e+007
81.104,2.703593,250.1442,28.09596,0,0,6.970575,6.738361,229568.5,3.005441e+007
83.104,2.770312,248.4506,27.90574,0,0,7.142594,6.899041,228014.2,2.989894e+007
85.104,2.838281,246.4253,27.67826,0,0,7.317835,7.062466,226155.5,2.970371e+007
86.614,2.8875,243.9351,27.39856,0,0,7.444734,7.180642,223870.1,2.943831e+007
88.614,2.954843,241.6456,27.1414,0,0,7.618363,7.342111,221768.9,2.920913e+007
90.488,3.016562,239.2169,26.86862,0,0,7.777491,7.489864,219540,2.895832e+007
92.488,3.082968,237.0666,26.6271,0,0,7.948704,7.648596,217566.6,2.874361e+007
94.488,3.150468,235.3068,26.42944,0,0,8.122736,7.809684,215951.6,2.857624e+007
96.47,3.215781,233.0364,26.17443,0,0,8.291129,7.965305,213867.9,2.834459e+007
98.47,3.282187,230.7341,25.91584,0,0,8.462342,8.123285,211755,2.810893e+007
100.47,3.350468,228.8058,25.69925,0,0,8.63839,8.285466,209985.3,2.791926e+007
101.898,3.396718,226.3006,25.41787,0,0,8.757634,8.395168,207686.2,2.764388e+007
103.386,3.446093,223.7986,25.13685,0,0,8.884935,8.51215,205390,2.737025e+007
104.844,3.495468,221.2909,24.85519,0,0,9.012238,8.628996,203088.5,2.70952e+007
105.802,3.526718,218.7877,24.57403,0,0,9.092808,8.702878,200791.2,2.68085e+007
106.756,3.558906,216.2817,24.29256,0,0,9.175796,8.77892,198491.4,2.652159e+007
107.496,3.583593,213.7796,24.01152,0,0,9.239447,8.837205,196195,2.623005e+007
107.95,3.599062,211.268,23.72943,0,0,9.279329,8.873707,193890.1,2.593136e+007
108.334,3.61125,208.755,23.44716,0,0,9.310752,8.902458,191583.7,2.563027e+007
108.726,3.624375,206.2461,23.16537,0,0,9.344591,8.93341,189281.2,2.533008e+007
109.14,3.638593,203.7191,22.88154,0,0,9.381251,8.966931,186962.1,2.502811e+007
109.474,3.649062,201.2061,22.59928,0,0,9.408242,8.991604,184655.8,2.472548e+007
109.916,3.664687,198.6955,22.3173,0,0,9.448527,9.028418,182351.8,2.442595e+007
110.26,3.675468,196.1737,22.03404,0,0,9.476324,9.053812,180037.3,2.412206e+007
110.658,3.689218,193.659,21.7516,0,0,9.511776,9.08619,177729.5,2.382056e+007
111.02,3.700624,191.1471,21.46947,0,0,9.541183,9.11304,175424.2,2.351791e+007
111.506,3.717812,188.6326,21.18704,0,0,9.585498,9.153486,173116.6,2.321792e+007
111.91,3.730468,186.1123,20.90396,0,0,9.618129,9.183258,170803.6,2.291453e+007
112.502,3.750937,183.5975,20.6215,0,0,9.670903,9.23139,168495.6,2.261578e+007
112.99,3.76625,181.0931,20.34021,0,0,9.710382,9.267382,166197.3,2.231532e+007
113.656,3.788593,178.5859,20.0586,0,0,9.76799,9.319877,163896.3,2.201793e+007
114.414,3.813906,176.0781,19.77693,0,0,9.833253,9.379315,161594.7,2.172164e+007
115.37,3.845625,173.576,19.4959,0,0,9.915032,9.453745,159298.5,2.142892e+007
116.4,3.88,171.0669,19.21408,0,0,10.00366,9.534346,156995.7,2.113619e+007
117.65,3.922187,168.5567,18.93214,0,0,10.11243,9.633175,154692,2.084664e+007
118.682,3.955937,166.0561,18.65127,0,0,10.19945,9.712168,152397.1,2.055359e+007
119.762,3.99203,163.5479,18.36955,0,0,10.29251,9.796579,150095.2,2.026023e+007
120.844,4.028749,161.0435,18.08825,0,0,10.38718,9.882378,147796.8,1.996711e+007
121.776,4.060312,158.5393,17.80699,0,0,10.46855,9.95607,145498.6,1.967112e+007
122.68,4.090311,156.0338,17.52557,0,0,10.5459,10.02606,143199.2,1.93738e+007
123.44,4.114999,153.5292,17.24426,0,0,10.60955,10.08362,140900.6,1.90738e+007
124.324,4.145468,151.0242,16.96289,0,0,10.68811,10.15462,138601.6,1.877591e+007
125.096,4.170624,148.5203,16.68166,0,0,10.75297,10.2132,136303.7,1.847543e+007
125.784,4.192812,146.0105,16.39976,0,0,10.81017,10.26484,134000.3,1.817261e+007
126.388,4.212968,143.5014,16.11794,0,0,10.86214,10.31173,131697.6,1.786869e+007
126.988,4.233593,140.9884,15.83569,0,0,10.91532,10.35968,129391.4,1.756421e+007
127.52,4.250624,138.4733,15.5532,0,0,10.95923,10.39926,127083.2,1.725771e+007
128.072,4.269374,135.9674,15.27173,0,0,11.00757,10.44282,124783.3,1.695277e+007
128.688,4.290312,133.459,14.98999,0,0,11.06155,10.49144,122481.2,1.664811e+007
129.238,4.308437,130.9485,14.70801,0,0,11.10828,10.53351,120177.3,1.634182e+007
129.812,4.327187,128.4377,14.426,0,0,11.15663,10.57701,117873,1.603546e+007
130.474,4.349687,125.929,14.14423,0,0,11.21464,10.62918,115570.7,1.573046e+007
131.23,4.375312,123.4125,13.86158,0,0,11.2807,10.68857,113261.2,1.542527e+007
131.938,4.398906,120.9042,13.57984,0,0,11.34154,10.74322,110959.1,1.512001e+007
132.684,4.423124,118.3987,13.29844,0,0,11.40398,10.79929,108659.8,1.481499e+007
133.448,4.448124,115.896,13.01733,0,0,11.46844,10.85713,106362.9,1.451022e+007
134.33,4.478124,113.3862,12.73543,0,0,11.54578,10.92649,104059.6,1.420584e+007
135.104,4.503437,110.8756,12.45345,0,0,11.61105,10.98498,101755.5,1.389942e+007
135.86,4.528593,108.3631,12.17124,0,0,11.6759,11.04308,99449.65,1.359234e+007
136.642,4.554843,105.8538,11.8894,0,0,11.74358,11.10366,97146.76,1.328564e+007
137.364,4.578906,103.3394,11.60699,0,0,11.80562,11.15917,94839.22,1.297727e+007
138.108,4.604218,100.8347,11.32566,0,0,11.87089,11.21752,92540.48,1.267011e+007
138.874,4.630155,98.32696,11.04399,0,0,11.93776,11.27728,90239.03,1.23624e+007
139.544,4.652343,95.82199,10.76264,0,0,11.99496,11.32837,87940.12,1.205361e+007
140.194,4.673124,93.31065,10.48057,0,0,12.04854,11.3762,85635.35,1.174332e+007
140.846,4.694843,90.79674,10.1982,0,0,12.10454,11.42616,83328.22,1.143265e+007
141.57,4.719374,88.28933,9.916574,0,0,12.16779,11.48257,81027.05,1.11232e+007
142.22,4.740937,85.78649,9.635459,0,0,12.22338,11.53212,78730.09,1.081324e+007
142.912,4.764374,83.27775,9.353679,0,0,12.28381,11.58595,76427.7,1.050267e+007
143.538,4.784374,80.763,9.071225,0,0,12.33538,11.63186,74119.81,1.019019e+007
144.272,4.809374,78.25419,8.789438,0,0,12.39983,11.68923,71817.36,9879313
144.99,4.833281,75.74454,8.507556,0,0,12.46147,11.74405,69514.14,9567722
145.742,4.858593,73.23646,8.22585,0,0,12.52673,11.80206,67212.36,9256281
146.584,4.887186,70.73352,7.944723,0,0,12.60045,11.86756,64915.3,8945794
147.38,4.913593,68.22867,7.66338,0,0,12.66854,11.928,62616.49,8634218
148.176,4.939843,65.71553,7.381107,0,0,12.73622,11.98805,60310.07,8321180
149.02,4.96828,63.21063,7.099759,0,0,12.80953,12.05307,58011.21,8009205
149.804,4.994218,60.70277,6.818079,0,0,12.87641,12.11233,55709.64,7696002
150.508,5.017031,58.19108,6.535968,0,0,12.93523,12.16442,53404.55,7381410
151.262,5.042186,55.68275,6.254234,0,0,13.00008,12.22184,51102.54,7067290
151.998,5.066406,53.16891,5.971882,0,0,13.06253,12.27708,48795.48,6751961
152.816,5.093906,50.66006,5.69009,0,0,13.13343,12.33977,46492.99,6437394
153.63,5.121093,48.15309,5.408511,0,0,13.20352,12.40171,44192.24,6122625
154.462,5.149062,45.64547,5.126857,0,0,13.27564,12.46539,41890.88,5807480
155.3,5.176718,43.14305,4.845788,0,0,13.34694,12.52832,39594.3,5492552
156.128,5.204374,40.64023,4.564673,0,0,13.41825,12.59121,37297.35,5177172
157.008,5.233593,38.1348,4.283265,0,0,13.49358,12.65761,34998.01,4861231
157.95,5.265312,35.62567,4.001442,0,0,13.57536,12.72964,32695.27,4544653
158.8,5.293437,33.12008,3.720016,0,0,13.64787,12.79347,30395.78,4227720
159.636,5.321093,30.61681,3.438851,0,0,13.71918,12.85619,28098.41,3910633
160.524,5.350937,28.11246,3.157565,0,0,13.79612,12.92383,25800.06,3593187
161.394,5.379687,25.60507,2.875937,0,0,13.87025,12.98894,23498.91,3274837
162.28,5.409218,23.10273,2.594877,0,0,13.94639,13.05579,21202.4,2956768
163.156,5.438593,20.59237,2.312915,0,0,14.02212,13.12223,18898.53,2637235
163.984,5.466249,18.08503,2.031293,0,0,14.09343,13.18475,16597.43,2317572
164.778,5.492499,15.57445,1.749307,0,0,14.16111,13.24405,14293.36,1997029
165.568,5.518905,13.06485,1.467432,0,0,14.22919,13.30367,11990.2,1676236
166.39,5.546561,10.55652,1.185698,0,0,14.3005,13.36607,9688.187,1355259
167.206,5.573593,8.04662,0.9037888,0,0,14.37019,13.42703,7384.742,1033665
167.986,5.599999,5.544777,0.6227841,0,0,14.43827,13.48654,5088.688,712703.4
168.734,5.625468,3.035651,0.3409615,0,0,14.50394,13.5439,2785.953,390414.4
169.358,5.645624,0.5315815,0.05970674,0,0,14.55591,13.58928,487.8561,68397.6
169.982,5.666405,-1.976313,-0.2219777,0,0,14.60948,13.63604,-1813.751,-254407.5
170.508,5.684061,-4.488476,-0.5041414,0,0,14.65501,13.67575,-4119.274,-578023.4
170.968,5.698749,-7.000019,-0.7862356,0,0,14.69288,13.70877,-6424.23,-901756.2
171.368,5.712812,-9.518519,-1.069111,0,0,14.72913,13.74038,-8735.569,-1226582
171.696,5.723437,-12.02284,-1.350394,0,0,14.75653,13.76425,-11033.89,-1549665
171.986,5.73328,-14.53619,-1.632692,0,0,14.78191,13.78637,-13340.51,-1874035
172.218,5.740937,-17.06615,-1.916854,0,0,14.80165,13.80356,-15662.36,-2200579
172.404,5.74703,-19.59252,-2.200613,0,0,14.81736,13.81725,-17980.93,-2526686
172.544,5.751562,-22.13754,-2.486467,0,0,14.82904,13.82742,-20316.6,-2855187
172.636,5.754686,-24.70807,-2.775187,0,0,14.8371,13.83444,-22675.7,-3186944
172.676,5.756249,-27.89199,-3.132802,0,0,14.84113,13.83795,-25597.72,-3597745
172.684,5.756874,-32.24322,-3.621529,0,0,14.84274,13.83935,-29591.04,-4159062
172.688,5.757187,-34.79487,-3.908127,0,0,14.84354,13.84005,-31932.8,-4488231
172.692,5.757343,-37.34941,-4.19505,0,0,14.84395,13.8404,-34277.21,-4817761
172.7,5.757811,-41.92849,-4.709369,0,0,14.84515,13.84145,-38479.65,-5408482
172.708,5.758124,-45.43098,-5.102765,0,0,14.84596,13.84216,-41694.04,-5860319
172.718,5.758437,-48.23347,-5.417538,0,0,14.84677,13.84286,-44266,-6221867
173.728,5.792031,-49.08968,-5.513707,0,0,14.93338,13.91825,-45051.79,-6337089
174.486,5.816405,-49.08957,-5.513695,0,0,14.99622,13.97291,-45051.69,-6340541